{
  "resourceType": "Bundle",
  "id": "tests-HighRiskSTDPatient-bundle",
  "type": "transaction",
  "entry": [ {
    "resource": {
      "resourceType": "Encounter",
      "id": "HighRiskSTDPatient-encounter-1",
      "meta": {
        "profile": [ "http://fhir.org/guides/nachc/hiv-cds/StructureDefinition/nachc-a0-de1" ]
      },
      "status": "in-progress",
      "class": {
        "system": "http://terminology.hl7.org/CodeSystem/v3-ActCode",
        "code": "AMB",
        "display": "ambulatory"
      },
      "type": [ {
        "coding": [ {
          "system": "http://fhir.org/guides/nachc/hiv-cds/CodeSystem/hiv-custom",
          "code": "Patient Encounter-99205",
          "display": "99205"
        } ]
      } ],
      "subject": {
        "reference": "Patient/HighRiskSTDPatient"
      },
      "period": {
        "start": "2021-07-08T10:00:00-07:00",
        "end": "2021-07-08T11:20:00-07:00"
      }
    },
    "request": {
      "method": "PUT",
      "url": "Encounter/HighRiskSTDPatient-encounter-1"
    }
  }, {
    "resource": {
      "resourceType": "Condition",
      "id": "HighRiskSTDPatient-condition-hcv-1",
      "meta": {
        "profile": [ "http://fhir.org/guides/nachc/hiv-cds/StructureDefinition/nachc-a1-de1" ]
      },
      "clinicalStatus": {
        "coding": [ {
          "system": "http://terminology.hl7.org/CodeSystem/condition-clinical",
          "version": "0.5.0",
          "code": "active",
          "display": "Active"
        } ]
      },
      "verificationStatus": {
        "coding": [ {
          "system": "http://terminology.hl7.org/ValueSet/condition-ver-status",
          "version": "0.5.0",
          "code": "confirmed",
          "display": "Confirmed"
        } ]
      },
      "category": [ {
        "coding": [ {
          "system": "http://terminology.hl7.org/ValueSet/condition-category",
          "version": "0.5.0",
          "code": "encounter-diagnosis",
          "display": "Encounter Diagnosis"
        } ]
      } ],
      "code": {
        "coding": [ {
          "system": "http://fhir.org/guides/nachc/hiv-cds/CodeSystem/hiv-custom",
          "code": "Hepatitis C Diagnosis-B17.1",
          "display": "B17.1"
        } ]
      },
      "subject": {
        "reference": "Patient/HighRiskSTDPatient"
      },
      "onsetDateTime": "2020-07-10T14:00:00-07:00",
      "abatementDateTime": "2021-07-10T14:00:00-07:00"
    },
    "request": {
      "method": "PUT",
      "url": "Condition/HighRiskSTDPatient-condition-hcv-1"
    }
  }, {
    "resource": {
      "resourceType": "Patient",
      "id": "HighRiskSTDPatient",
      "meta": {
        "profile": [ "http://hl7.org/fhir/us/qicore/StructureDefinition/qicore-patient" ]
      },
      "identifier": [ {
        "use": "usual",
        "type": {
          "coding": [ {
            "system": "http://terminology.hl7.org/CodeSystem/v2-0203",
            "code": "MR"
          } ]
        },
        "system": "urn:oid:1.2.36.146.595.217.0.1",
        "value": "12345",
        "period": {
          "start": "2001-05-06"
        },
        "assigner": {
          "display": "Acme Healthcare"
        }
      } ],
      "active": true,
      "name": [ {
        "use": "official",
        "family": "Jones",
        "given": [ "John" ]
      } ],
      "gender": "male",
      "birthDate": "1982-08-08",
      "deceasedBoolean": false
    },
    "request": {
      "method": "PUT",
      "url": "Patient/HighRiskSTDPatient"
    }
  }, {
    "resource": {
      "resourceType": "Observation",
      "id": "HighRiskSTDPatient-observation-seeking-1",
      "meta": {
        "profile": [ "http://fhir.org/guides/nachc/hiv-cds/StructureDefinition/nachc-h1-de9" ]
      },
      "status": "preliminary",
      "code": {
        "coding": [ {
          "system": "http://fhir.org/guides/nachc/hiv-cds/CodeSystem/hiv-custom",
          "code": "Whether the patient is currently seeking evaluation and treatment for an STD",
          "display": "Whether the patient is currently seeking evaluation and treatment for an STD"
        } ]
      },
      "subject": {
        "reference": "Patient/HighRiskSTDPatient"
      },
      "encounter": {
        "reference": "Encounter/HighRiskSTDPatient-encounter-1"
      },
      "effectiveDateTime": "2021-07-08T10:20:00-07:00",
      "valueBoolean": true
    },
    "request": {
      "method": "PUT",
      "url": "Observation/HighRiskSTDPatient-observation-seeking-1"
    }
  } ]
}