{
  "resourceType": "Bundle",
  "id": "tests-MSMPatient-bundle",
  "type": "transaction",
  "entry": [ {
    "resource": {
      "resourceType": "Encounter",
      "id": "MSMPatient-encounter-1",
      "meta": {
        "profile": [ "http://fhir.org/guides/nachc/hiv-cds/StructureDefinition/nachc-a0-de1" ]
      },
      "status": "in-progress",
      "class": {
        "system": "http://terminology.hl7.org/CodeSystem/v3-ActCode",
        "code": "AMB",
        "display": "ambulatory"
      },
      "type": [ {
        "coding": [ {
          "system": "http://fhir.org/guides/nachc/hiv-cds/CodeSystem/hiv-custom",
          "code": "Patient Encounter-99205",
          "display": "99205"
        } ]
      } ],
      "subject": {
        "reference": "Patient/MSMPatient"
      },
      "period": {
        "start": "2021-07-31T10:00:00-07:00",
        "end": "2021-07-31T11:20:00-07:00"
      }
    },
    "request": {
      "method": "PUT",
      "url": "Encounter/MSMPatient-encounter-1"
    }
  }, {
    "resource": {
      "resourceType": "Observation",
      "id": "MSMPatient-observation-msm-2",
      "meta": {
        "profile": [ "http://fhir.org/guides/nachc/hiv-cds/StructureDefinition/nachc-h1-de13" ]
      },
      "status": "preliminary",
      "code": {
        "coding": [ {
          "system": "http://fhir.org/guides/nachc/hiv-cds/CodeSystem/hiv-custom",
          "code": "Whether the patient has been sexually active with men",
          "display": "Whether the patient has been sexually active with men"
        } ]
      },
      "subject": {
        "reference": "Patient/MSMPatient"
      },
      "encounter": {
        "reference": "Encounter/MSMPatient-encounter-1"
      },
      "effectiveDateTime": "2021-07-31T10:30:00-07:00",
      "valueBoolean": true
    },
    "request": {
      "method": "PUT",
      "url": "Observation/MSMPatient-observation-msm-2"
    }
  }, {
    "resource": {
      "resourceType": "Observation",
      "id": "MSMPatient-observation-multiple-3",
      "meta": {
        "profile": [ "http://fhir.org/guides/nachc/hiv-cds/StructureDefinition/nachc-h1-de18" ]
      },
      "status": "preliminary",
      "code": {
        "coding": [ {
          "system": "http://fhir.org/guides/nachc/hiv-cds/CodeSystem/hiv-custom",
          "code": "Whether the patient’s partner has had more than 1 partner since previous HIV Test",
          "display": "Whether the patient’s partner has had more than 1 partner since previous HIV Test"
        } ]
      },
      "subject": {
        "reference": "Patient/MSMPatient"
      },
      "encounter": {
        "reference": "Encounter/MSMPatient-encounter-1"
      },
      "effectiveDateTime": "2021-07-31T10:30:00-07:00",
      "valueBoolean": true
    },
    "request": {
      "method": "PUT",
      "url": "Observation/MSMPatient-observation-multiple-3"
    }
  }, {
    "resource": {
      "resourceType": "Observation",
      "id": "MSMPatient-observation-screening-1",
      "meta": {
        "profile": [ "http://fhir.org/guides/nachc/hiv-cds/StructureDefinition/nachc-a2-de1" ]
      },
      "status": "final",
      "code": {
        "coding": [ {
          "system": "http://fhir.org/guides/nachc/hiv-cds/CodeSystem/hiv-custom",
          "code": "HIV Test",
          "display": "HIV Test"
        } ]
      },
      "subject": {
        "reference": "Patient/MSMPatient"
      },
      "effectiveDateTime": "2020-06-08T10:20:00-07:00",
      "valueCodeableConcept": {
        "coding": [ {
          "system": "http://fhir.org/guides/nachc/hiv-cds/CodeSystem/hiv-custom",
          "code": "HIV Test-25835-0",
          "display": "25835-0"
        } ]
      }
    },
    "request": {
      "method": "PUT",
      "url": "Observation/MSMPatient-observation-screening-1"
    }
  }, {
    "resource": {
      "resourceType": "Patient",
      "id": "MSMPatient",
      "meta": {
        "profile": [ "http://hl7.org/fhir/us/qicore/StructureDefinition/qicore-patient" ]
      },
      "identifier": [ {
        "use": "usual",
        "type": {
          "coding": [ {
            "system": "http://terminology.hl7.org/CodeSystem/v2-0203",
            "code": "MR"
          } ]
        },
        "system": "urn:oid:1.2.36.146.595.217.0.1",
        "value": "12345",
        "period": {
          "start": "2001-05-06"
        },
        "assigner": {
          "display": "Acme Healthcare"
        }
      } ],
      "active": true,
      "name": [ {
        "use": "official",
        "family": "Kotic",
        "given": [ "Joe" ]
      } ],
      "gender": "male",
      "birthDate": "1972-06-09",
      "deceasedBoolean": false
    },
    "request": {
      "method": "PUT",
      "url": "Patient/MSMPatient"
    }
  } ]
}