{
  "resourceType": "Bundle",
  "id": "Screening-bundle",
  "type": "transaction",
  "entry": [ {
    "resource": {
      "resourceType": "Patient",
      "id": "HighRiskSTDPatient",
      "meta": {
        "profile": [ "http://hl7.org/fhir/us/qicore/StructureDefinition/qicore-patient" ]
      },
      "identifier": [ {
        "use": "usual",
        "type": {
          "coding": [ {
            "system": "http://terminology.hl7.org/CodeSystem/v2-0203",
            "code": "MR"
          } ]
        },
        "system": "urn:oid:1.2.36.146.595.217.0.1",
        "value": "12345",
        "period": {
          "start": "2001-05-06"
        },
        "assigner": {
          "display": "Acme Healthcare"
        }
      } ],
      "active": true,
      "name": [ {
        "use": "official",
        "family": "Jones",
        "given": [ "John" ]
      } ],
      "gender": "male",
      "birthDate": "1982-08-08",
      "deceasedBoolean": false
    },
    "request": {
      "method": "PUT",
      "url": "Patient/HighRiskSTDPatient"
    }
  }, {
    "resource": {
      "resourceType": "Encounter",
      "id": "MSMPatient-encounter-1",
      "meta": {
        "profile": [ "http://fhir.org/guides/nachc/hiv-cds/StructureDefinition/nachc-a0-de1" ]
      },
      "status": "in-progress",
      "class": {
        "system": "http://terminology.hl7.org/CodeSystem/v3-ActCode",
        "code": "AMB",
        "display": "ambulatory"
      },
      "type": [ {
        "coding": [ {
          "system": "http://fhir.org/guides/nachc/hiv-cds/CodeSystem/hiv-custom",
          "code": "Patient Encounter-99205",
          "display": "99205"
        } ]
      } ],
      "subject": {
        "reference": "Patient/MSMPatient"
      },
      "period": {
        "start": "2021-07-31T10:00:00-07:00",
        "end": "2021-07-31T11:20:00-07:00"
      }
    },
    "request": {
      "method": "PUT",
      "url": "Encounter/MSMPatient-encounter-1"
    }
  }, {
    "resource": {
      "resourceType": "Library",
      "id": "Screening",
      "extension": [ {
        "url": "http://hl7.org/fhir/us/cqfmeasures/StructureDefinition/cqfm-softwaresystem",
        "valueReference": {
          "reference": "Device/cqf-tooling"
        }
      } ],
      "url": "http://fhir.org/guides/nachc/hiv-cds/Library/Screening",
      "name": "Screening",
      "title": "Library - HIV Screening",
      "type": {
        "coding": [ {
          "system": "http://hl7.org/fhir/ValueSet/library-type",
          "version": "4.0.1",
          "code": "logic-library",
          "display": "Logic Library"
        } ]
      },
      "subjectCodeableConcept": {
        "coding": [ {
          "system": "http://hl7.org/fhir/ValueSet/subject-type",
          "version": "4.0.1",
          "code": "Patient",
          "display": "Patient"
        } ]
      },
      "date": "2021-05-12T00:00:00-07:00",
      "publisher": "National Association of Community Health Centers, Inc. (NACHC)",
      "contact": [ {
        "telecom": [ {
          "system": "url",
          "value": "https://www.nachc.org/"
        } ]
      } ],
      "description": "Logic library for implementation of the CDC HIV Screening Recommendation.",
      "useContext": [ {
        "code": {
          "system": "http://hl7.org/fhir/usage-context-type",
          "version": "4.0.1",
          "code": "focus",
          "display": "Clinical Focus"
        },
        "valueCodeableConcept": {
          "coding": [ {
            "system": "http://hl7.org/fhir/sid/icd-10-cm",
            "version": "2021",
            "code": "B20",
            "display": "Human immunodeficiency virus [HIV] disease"
          } ]
        }
      } ],
      "jurisdiction": [ {
        "coding": [ {
          "system": "http://hl7.org/fhir/ValueSet/iso3166-1-3",
          "version": "4.0.1",
          "code": "USA",
          "display": "United States of America"
        } ]
      } ],
      "purpose": "The purpose of this is to implement a Clinical Decision Support Workflow via CDS-Hooks to establish the CDC's HIV Screening Recommendation.",
      "usage": "This is to be used in conjunction with a patient-facing FHIR application.",
      "copyright": "© Copyright National Association of Community Health Centers, Inc. (NACHC) 2021+.",
      "topic": [ {
        "coding": [ {
          "system": "http://hl7.org/fhir/ValueSet/definition-topic",
          "version": "4.0.1",
          "code": "assessment",
          "display": "Assessment"
        } ],
        "text": "HIV Management"
      } ],
      "content": [ {
        "contentType": "text/cql",
        "data": ""
      } ]
    },
    "request": {
      "method": "PUT",
      "url": "Library/Screening"
    }
  }, {
    "resource": {
      "resourceType": "Observation",
      "id": "MSMPatient-observation-msm-2",
      "meta": {
        "profile": [ "http://fhir.org/guides/nachc/hiv-cds/StructureDefinition/nachc-h1-de13" ]
      },
      "status": "preliminary",
      "code": {
        "coding": [ {
          "system": "http://fhir.org/guides/nachc/hiv-cds/CodeSystem/hiv-custom",
          "code": "Whether the patient has been sexually active with men",
          "display": "Whether the patient has been sexually active with men"
        } ]
      },
      "subject": {
        "reference": "Patient/MSMPatient"
      },
      "encounter": {
        "reference": "Encounter/MSMPatient-encounter-1"
      },
      "effectiveDateTime": "2021-07-31T10:30:00-07:00",
      "valueBoolean": true
    },
    "request": {
      "method": "PUT",
      "url": "Observation/MSMPatient-observation-msm-2"
    }
  }, {
    "resource": {
      "resourceType": "Encounter",
      "id": "ExclusionPatient-encounter-1",
      "meta": {
        "profile": [ "http://fhir.org/guides/nachc/hiv-cds/StructureDefinition/nachc-a0-de1" ]
      },
      "status": "in-progress",
      "class": {
        "system": "http://terminology.hl7.org/CodeSystem/v3-ActCode",
        "code": "AMB",
        "display": "ambulatory"
      },
      "type": [ {
        "coding": [ {
          "system": "http://fhir.org/guides/nachc/hiv-cds/CodeSystem/hiv-custom",
          "code": "Patient Encounter-99205",
          "display": "99205"
        } ]
      } ],
      "subject": {
        "reference": "Patient/ExclusionPatient"
      },
      "period": {
        "start": "2021-05-10T14:00:00-07:00",
        "end": "2021-05-10T15:20:00-07:00"
      }
    },
    "request": {
      "method": "PUT",
      "url": "Encounter/ExclusionPatient-encounter-1"
    }
  }, {
    "resource": {
      "resourceType": "Encounter",
      "id": "HighRiskIDUPatient-encounter-1",
      "meta": {
        "profile": [ "http://fhir.org/guides/nachc/hiv-cds/StructureDefinition/nachc-a0-de1" ]
      },
      "status": "in-progress",
      "class": {
        "system": "http://terminology.hl7.org/CodeSystem/v3-ActCode",
        "code": "AMB",
        "display": "ambulatory"
      },
      "type": [ {
        "coding": [ {
          "system": "http://fhir.org/guides/nachc/hiv-cds/CodeSystem/hiv-custom",
          "code": "Patient Encounter-99205",
          "display": "99205"
        } ]
      } ],
      "subject": {
        "reference": "Patient/HighRiskIDUPatient"
      },
      "period": {
        "start": "2021-07-08T08:00:00-07:00",
        "end": "2021-07-08T09:20:00-07:00"
      }
    },
    "request": {
      "method": "PUT",
      "url": "Encounter/HighRiskIDUPatient-encounter-1"
    }
  }, {
    "resource": {
      "resourceType": "Condition",
      "id": "HighRiskPregnantPatient-condition-pregnant-1",
      "meta": {
        "profile": [ "http://fhir.org/guides/nachc/hiv-cds/StructureDefinition/nachc-a1-de1" ]
      },
      "clinicalStatus": {
        "coding": [ {
          "system": "http://terminology.hl7.org/CodeSystem/condition-clinical",
          "version": "0.5.0",
          "code": "active",
          "display": "Active"
        } ]
      },
      "verificationStatus": {
        "coding": [ {
          "system": "http://terminology.hl7.org/ValueSet/condition-ver-status",
          "version": "0.5.0",
          "code": "confirmed",
          "display": "Confirmed"
        } ]
      },
      "category": [ {
        "coding": [ {
          "system": "http://terminology.hl7.org/ValueSet/condition-category",
          "version": "0.5.0",
          "code": "encounter-diagnosis",
          "display": "Encounter Diagnosis"
        } ]
      } ],
      "code": {
        "coding": [ {
          "system": "http://fhir.org/guides/nachc/hiv-cds/CodeSystem/hiv-custom",
          "code": "Pregnancy Conditions-Z33.3",
          "display": "Z33.3"
        } ]
      },
      "subject": {
        "reference": "Patient/HighRiskPregnantPatient"
      },
      "onsetDateTime": "2021-01-10T12:00:00-07:00"
    },
    "request": {
      "method": "PUT",
      "url": "Condition/HighRiskPregnantPatient-condition-pregnant-1"
    }
  }, {
    "resource": {
      "resourceType": "Observation",
      "id": "HighRiskPregnantPatient-observation-screening-1",
      "meta": {
        "profile": [ "http://fhir.org/guides/nachc/hiv-cds/StructureDefinition/nachc-a2-de1" ]
      },
      "status": "final",
      "code": {
        "coding": [ {
          "system": "http://fhir.org/guides/nachc/hiv-cds/CodeSystem/hiv-custom",
          "code": "HIV Test",
          "display": "HIV Test"
        } ]
      },
      "subject": {
        "reference": "Patient/HighRiskPregnantPatient"
      },
      "effectiveDateTime": "2021-02-08T10:20:00-07:00",
      "valueCodeableConcept": {
        "coding": [ {
          "system": "http://fhir.org/guides/nachc/hiv-cds/CodeSystem/hiv-custom",
          "code": "HIV Test-41145-4",
          "display": "41145-4"
        } ]
      }
    },
    "request": {
      "method": "PUT",
      "url": "Observation/HighRiskPregnantPatient-observation-screening-1"
    }
  }, {
    "resource": {
      "resourceType": "Encounter",
      "id": "InclusionPatient-encounter-1",
      "meta": {
        "profile": [ "http://fhir.org/guides/nachc/hiv-cds/StructureDefinition/nachc-a0-de1" ]
      },
      "status": "in-progress",
      "class": {
        "system": "http://terminology.hl7.org/CodeSystem/v3-ActCode",
        "code": "AMB",
        "display": "ambulatory"
      },
      "type": [ {
        "coding": [ {
          "system": "http://fhir.org/guides/nachc/hiv-cds/CodeSystem/hiv-custom",
          "code": "Patient Encounter-99205",
          "display": "99205"
        } ]
      } ],
      "subject": {
        "reference": "Patient/InclusionPatient"
      },
      "period": {
        "start": "2021-05-10T12:00:00-07:00",
        "end": "2021-05-10T13:20:00-07:00"
      }
    },
    "request": {
      "method": "PUT",
      "url": "Encounter/InclusionPatient-encounter-1"
    }
  }, {
    "resource": {
      "resourceType": "Encounter",
      "id": "HighRiskPregnantPatient-encounter-1",
      "meta": {
        "profile": [ "http://fhir.org/guides/nachc/hiv-cds/StructureDefinition/nachc-f2-de38" ]
      },
      "status": "in-progress",
      "class": {
        "system": "http://terminology.hl7.org/CodeSystem/v3-ActCode",
        "code": "AMB",
        "display": "ambulatory"
      },
      "type": [ {
        "coding": [ {
          "system": "http://fhir.org/guides/nachc/hiv-cds/CodeSystem/hiv-custom",
          "code": "Third Trimester Encounters-Z34.83",
          "display": "Z34.83"
        } ]
      } ],
      "subject": {
        "reference": "Patient/HighRiskPregnantPatient"
      },
      "period": {
        "start": "2021-07-30T10:00:00-07:00",
        "end": "2021-07-30T11:20:00-07:00"
      }
    },
    "request": {
      "method": "PUT",
      "url": "Encounter/HighRiskPregnantPatient-encounter-1"
    }
  }, {
    "resource": {
      "resourceType": "Observation",
      "id": "MSMPatient-observation-screening-1",
      "meta": {
        "profile": [ "http://fhir.org/guides/nachc/hiv-cds/StructureDefinition/nachc-a2-de1" ]
      },
      "status": "final",
      "code": {
        "coding": [ {
          "system": "http://fhir.org/guides/nachc/hiv-cds/CodeSystem/hiv-custom",
          "code": "HIV Test",
          "display": "HIV Test"
        } ]
      },
      "subject": {
        "reference": "Patient/MSMPatient"
      },
      "effectiveDateTime": "2020-06-08T10:20:00-07:00",
      "valueCodeableConcept": {
        "coding": [ {
          "system": "http://fhir.org/guides/nachc/hiv-cds/CodeSystem/hiv-custom",
          "code": "HIV Test-25835-0",
          "display": "25835-0"
        } ]
      }
    },
    "request": {
      "method": "PUT",
      "url": "Observation/MSMPatient-observation-screening-1"
    }
  }, {
    "resource": {
      "resourceType": "PlanDefinition",
      "id": "plandefinition-Screening",
      "url": "http://fhir.org/guides/nachc/hiv-cds/PlanDefinition/plandefinition-Screening",
      "identifier": [ {
        "use": "official",
        "value": "nachc-Screening"
      } ],
      "version": "1.0.0",
      "name": "Screening",
      "title": "CDC HIV Screening",
      "type": {
        "coding": [ {
          "system": "http://terminology.hl7.org/CodeSystem/plan-definition-type",
          "code": "eca-rule",
          "display": "ECA Rule"
        } ]
      },
      "status": "draft",
      "date": "2021-07-31T00:00:00-08:00",
      "publisher": "National Association of Community Health Centers, Inc. (NACHC)",
      "description": "This PlanDefinition defines a a Clinical Decision Support CDC Recommendation for HIV Screening",
      "useContext": [ {
        "code": {
          "system": "http://terminology.hl7.org/CodeSystem/usage-context-type",
          "version": "4.0.1",
          "code": "focus",
          "display": "Clinical Focus"
        },
        "valueCodeableConcept": {
          "coding": [ {
            "system": "http://hl7.org/fhir/sid/icd-10-cm",
            "version": "2021",
            "code": "B20",
            "display": "Human immunodeficiency virus [HIV] disease"
          } ]
        }
      } ],
      "jurisdiction": [ {
        "coding": [ {
          "system": "http://hl7.org/fhir/ValueSet/iso3166-1-3",
          "version": "4.0.1",
          "code": "USA",
          "display": "United States of America"
        } ]
      } ],
      "purpose": "The purpose of this is to identify and build CDS support for HIV Screening.",
      "usage": "This is to be used in conjunction with a patient-facing FHIR application.",
      "copyright": "© Copyright National Association of Community Health Centers, Inc. (NACHC) 2021+.",
      "topic": [ {
        "coding": [ {
          "system": "http://terminology.hl7.org/CodeSystem/definition-topic",
          "version": "4.0.1",
          "code": "assessment",
          "display": "Assessment"
        } ],
        "text": "HIV Management"
      } ],
      "library": [ "http://fhir.org/guides/nachc/hiv-cds/Library/Screening" ],
      "action": [ {
        "title": "HIV Screening",
        "documentation": [ {
          "type": "documentation",
          "display": "Info for those with HIV",
          "url": "https://www.cdc.gov/hiv/guidelines/testing.html"
        } ],
        "trigger": [ {
          "type": "named-event",
          "name": "patient-view"
        } ],
        "condition": [ {
          "kind": "start",
          "expression": {
            "language": "text/cql",
            "expression": "'true'"
          }
        } ],
        "dynamicValue": [ {
          "path": "action.description",
          "expression": {
            "description": "Patient Name.",
            "language": "text/cql.identifier",
            "expression": "Patient Name"
          }
        }, {
          "path": "action.extension",
          "expression": {
            "language": "text/cql.identifier",
            "expression": "Info"
          }
        } ],
        "action": [ {
          "title": "Recommendation",
          "description": "Determines type of recommendation regarding status of HIV Screening.",
          "condition": [ {
            "kind": "applicability",
            "expression": {
              "description": "Determine if Patient is in screening population.",
              "language": "text/cql.identifier",
              "expression": "In Population"
            }
          } ],
          "dynamicValue": [ {
            "path": "action.title",
            "expression": {
              "description": "Determines what recommendation patient should be provided.",
              "language": "text/cql.identifier",
              "expression": "Recommendation"
            }
          }, {
            "path": "action.description",
            "expression": {
              "description": "Rationale for recommendation type.",
              "language": "text/cql.identifier",
              "expression": "Rationale"
            }
          }, {
            "path": "action.extension",
            "expression": {
              "language": "text/cql.identifier",
              "expression": "Indicator Status"
            }
          } ]
        }, {
          "title": "Exclusion from HIV Screening",
          "description": "Determines if patient was excluded from HIV Screening Recommendation.",
          "condition": [ {
            "kind": "applicability",
            "expression": {
              "description": "Determine if Patient is in hiv exclusion population.",
              "language": "text/cql.identifier",
              "expression": "Meets Exclusion Criteria"
            }
          } ],
          "dynamicValue": [ {
            "path": "action.description",
            "expression": {
              "description": "Rationale for why patient was excluded from the hiv screening.",
              "language": "text/cql.identifier",
              "expression": "Exclusion Reason"
            }
          }, {
            "path": "action.extension",
            "expression": {
              "language": "text/cql.identifier",
              "expression": "Info"
            }
          } ]
        } ]
      } ]
    },
    "request": {
      "method": "PUT",
      "url": "PlanDefinition/plandefinition-Screening"
    }
  }, {
    "resource": {
      "resourceType": "Condition",
      "id": "HighRiskSTDPatient-condition-hcv-1",
      "meta": {
        "profile": [ "http://fhir.org/guides/nachc/hiv-cds/StructureDefinition/nachc-a1-de1" ]
      },
      "clinicalStatus": {
        "coding": [ {
          "system": "http://terminology.hl7.org/CodeSystem/condition-clinical",
          "version": "0.5.0",
          "code": "active",
          "display": "Active"
        } ]
      },
      "verificationStatus": {
        "coding": [ {
          "system": "http://terminology.hl7.org/ValueSet/condition-ver-status",
          "version": "0.5.0",
          "code": "confirmed",
          "display": "Confirmed"
        } ]
      },
      "category": [ {
        "coding": [ {
          "system": "http://terminology.hl7.org/ValueSet/condition-category",
          "version": "0.5.0",
          "code": "encounter-diagnosis",
          "display": "Encounter Diagnosis"
        } ]
      } ],
      "code": {
        "coding": [ {
          "system": "http://fhir.org/guides/nachc/hiv-cds/CodeSystem/hiv-custom",
          "code": "Hepatitis C Diagnosis-B17.1",
          "display": "B17.1"
        } ]
      },
      "subject": {
        "reference": "Patient/HighRiskSTDPatient"
      },
      "onsetDateTime": "2020-07-10T14:00:00-07:00",
      "abatementDateTime": "2021-07-10T14:00:00-07:00"
    },
    "request": {
      "method": "PUT",
      "url": "Condition/HighRiskSTDPatient-condition-hcv-1"
    }
  }, {
    "resource": {
      "resourceType": "Patient",
      "id": "ExclusionPatient",
      "meta": {
        "profile": [ "http://hl7.org/fhir/us/qicore/StructureDefinition/qicore-patient" ]
      },
      "identifier": [ {
        "use": "usual",
        "type": {
          "coding": [ {
            "system": "http://terminology.hl7.org/CodeSystem/v2-0203",
            "code": "MR"
          } ]
        },
        "system": "urn:oid:1.2.36.146.595.217.0.1",
        "value": "12345",
        "period": {
          "start": "2001-05-06"
        },
        "assigner": {
          "display": "Acme Healthcare"
        }
      } ],
      "active": true,
      "name": [ {
        "use": "official",
        "family": "Merryweather",
        "given": [ "Sally" ]
      } ],
      "gender": "female",
      "birthDate": "1994-11-22",
      "deceasedBoolean": false
    },
    "request": {
      "method": "PUT",
      "url": "Patient/ExclusionPatient"
    }
  }, {
    "resource": {
      "resourceType": "Observation",
      "id": "HighRiskPregnantPatient-observation-multiple-2",
      "meta": {
        "profile": [ "http://fhir.org/guides/nachc/hiv-cds/StructureDefinition/nachc-h1-de15" ]
      },
      "status": "preliminary",
      "code": {
        "coding": [ {
          "system": "http://fhir.org/guides/nachc/hiv-cds/CodeSystem/hiv-custom",
          "code": "Whether the patient has had more than 1 partner since previous HIV test",
          "display": "Whether the patient has had more than 1 partner since previous HIV test"
        } ]
      },
      "subject": {
        "reference": "Patient/HighRiskPregnantPatient"
      },
      "encounter": {
        "reference": "Encounter/HighRiskSTDPatient-encounter-1"
      },
      "effectiveDateTime": "2021-07-30T10:30:00-07:00",
      "valueBoolean": true
    },
    "request": {
      "method": "PUT",
      "url": "Observation/HighRiskPregnantPatient-observation-multiple-2"
    }
  }, {
    "resource": {
      "resourceType": "Patient",
      "id": "HighRiskPregnantPatient",
      "meta": {
        "profile": [ "http://hl7.org/fhir/us/qicore/StructureDefinition/qicore-patient" ]
      },
      "identifier": [ {
        "use": "usual",
        "type": {
          "coding": [ {
            "system": "http://terminology.hl7.org/CodeSystem/v2-0203",
            "code": "MR"
          } ]
        },
        "system": "urn:oid:1.2.36.146.595.217.0.1",
        "value": "12345",
        "period": {
          "start": "2001-05-06"
        },
        "assigner": {
          "display": "Acme Healthcare"
        }
      } ],
      "active": true,
      "name": [ {
        "use": "official",
        "family": "Coraline",
        "given": [ "Beatrix" ]
      } ],
      "gender": "female",
      "birthDate": "1989-01-12",
      "deceasedBoolean": false
    },
    "request": {
      "method": "PUT",
      "url": "Patient/HighRiskPregnantPatient"
    }
  }, {
    "resource": {
      "resourceType": "Observation",
      "id": "MSMPatient-observation-multiple-3",
      "meta": {
        "profile": [ "http://fhir.org/guides/nachc/hiv-cds/StructureDefinition/nachc-h1-de18" ]
      },
      "status": "preliminary",
      "code": {
        "coding": [ {
          "system": "http://fhir.org/guides/nachc/hiv-cds/CodeSystem/hiv-custom",
          "code": "Whether the patient’s partner has had more than 1 partner since previous HIV Test",
          "display": "Whether the patient’s partner has had more than 1 partner since previous HIV Test"
        } ]
      },
      "subject": {
        "reference": "Patient/MSMPatient"
      },
      "encounter": {
        "reference": "Encounter/MSMPatient-encounter-1"
      },
      "effectiveDateTime": "2021-07-31T10:30:00-07:00",
      "valueBoolean": true
    },
    "request": {
      "method": "PUT",
      "url": "Observation/MSMPatient-observation-multiple-3"
    }
  }, {
    "resource": {
      "resourceType": "Condition",
      "id": "HighRiskIDUPatient-condition-hcv-1",
      "meta": {
        "profile": [ "http://fhir.org/guides/nachc/hiv-cds/StructureDefinition/nachc-a1-de1" ]
      },
      "clinicalStatus": {
        "coding": [ {
          "system": "http://terminology.hl7.org/CodeSystem/condition-clinical",
          "version": "0.5.0",
          "code": "active",
          "display": "Active"
        } ]
      },
      "verificationStatus": {
        "coding": [ {
          "system": "http://terminology.hl7.org/ValueSet/condition-ver-status",
          "version": "0.5.0",
          "code": "confirmed",
          "display": "Confirmed"
        } ]
      },
      "category": [ {
        "coding": [ {
          "system": "http://terminology.hl7.org/ValueSet/condition-category",
          "version": "0.5.0",
          "code": "encounter-diagnosis",
          "display": "Encounter Diagnosis"
        } ]
      } ],
      "code": {
        "coding": [ {
          "system": "http://fhir.org/guides/nachc/hiv-cds/CodeSystem/hiv-custom",
          "code": "Injection Drug Use Diagnosis-L98.8",
          "display": "L98.8"
        } ]
      },
      "subject": {
        "reference": "Patient/HighRiskIDUPatient"
      },
      "onsetDateTime": "2018-07-10T14:00:00-07:00"
    },
    "request": {
      "method": "PUT",
      "url": "Condition/HighRiskIDUPatient-condition-hcv-1"
    }
  }, {
    "resource": {
      "resourceType": "Patient",
      "id": "MSMPatient",
      "meta": {
        "profile": [ "http://hl7.org/fhir/us/qicore/StructureDefinition/qicore-patient" ]
      },
      "identifier": [ {
        "use": "usual",
        "type": {
          "coding": [ {
            "system": "http://terminology.hl7.org/CodeSystem/v2-0203",
            "code": "MR"
          } ]
        },
        "system": "urn:oid:1.2.36.146.595.217.0.1",
        "value": "12345",
        "period": {
          "start": "2001-05-06"
        },
        "assigner": {
          "display": "Acme Healthcare"
        }
      } ],
      "active": true,
      "name": [ {
        "use": "official",
        "family": "Kotic",
        "given": [ "Joe" ]
      } ],
      "gender": "male",
      "birthDate": "1972-06-09",
      "deceasedBoolean": false
    },
    "request": {
      "method": "PUT",
      "url": "Patient/MSMPatient"
    }
  }, {
    "resource": {
      "resourceType": "Encounter",
      "id": "HighRiskSTDPatient-encounter-1",
      "meta": {
        "profile": [ "http://fhir.org/guides/nachc/hiv-cds/StructureDefinition/nachc-a0-de1" ]
      },
      "status": "in-progress",
      "class": {
        "system": "http://terminology.hl7.org/CodeSystem/v3-ActCode",
        "code": "AMB",
        "display": "ambulatory"
      },
      "type": [ {
        "coding": [ {
          "system": "http://fhir.org/guides/nachc/hiv-cds/CodeSystem/hiv-custom",
          "code": "Patient Encounter-99205",
          "display": "99205"
        } ]
      } ],
      "subject": {
        "reference": "Patient/HighRiskSTDPatient"
      },
      "period": {
        "start": "2021-07-08T10:00:00-07:00",
        "end": "2021-07-08T11:20:00-07:00"
      }
    },
    "request": {
      "method": "PUT",
      "url": "Encounter/HighRiskSTDPatient-encounter-1"
    }
  }, {
    "resource": {
      "resourceType": "Observation",
      "id": "HighRiskSTDPatient-observation-seeking-1",
      "meta": {
        "profile": [ "http://fhir.org/guides/nachc/hiv-cds/StructureDefinition/nachc-h1-de9" ]
      },
      "status": "preliminary",
      "code": {
        "coding": [ {
          "system": "http://fhir.org/guides/nachc/hiv-cds/CodeSystem/hiv-custom",
          "code": "Whether the patient is currently seeking evaluation and treatment for an STD",
          "display": "Whether the patient is currently seeking evaluation and treatment for an STD"
        } ]
      },
      "subject": {
        "reference": "Patient/HighRiskSTDPatient"
      },
      "encounter": {
        "reference": "Encounter/HighRiskSTDPatient-encounter-1"
      },
      "effectiveDateTime": "2021-07-08T10:20:00-07:00",
      "valueBoolean": true
    },
    "request": {
      "method": "PUT",
      "url": "Observation/HighRiskSTDPatient-observation-seeking-1"
    }
  }, {
    "resource": {
      "resourceType": "Patient",
      "id": "InclusionPatient",
      "meta": {
        "profile": [ "http://hl7.org/fhir/us/qicore/StructureDefinition/qicore-patient" ]
      },
      "identifier": [ {
        "use": "usual",
        "type": {
          "coding": [ {
            "system": "http://terminology.hl7.org/CodeSystem/v2-0203",
            "code": "MR"
          } ]
        },
        "system": "urn:oid:1.2.36.146.595.217.0.1",
        "value": "12345",
        "period": {
          "start": "2001-05-06"
        },
        "assigner": {
          "display": "Acme Healthcare"
        }
      } ],
      "active": true,
      "name": [ {
        "use": "official",
        "family": "Chalmers",
        "given": [ "Peter", "James" ]
      }, {
        "use": "usual",
        "family": "Chalmers",
        "given": [ "Jim" ]
      }, {
        "use": "maiden",
        "family": "Windsor",
        "given": [ "Peter", "James" ],
        "period": {
          "end": "2002"
        }
      } ],
      "telecom": [ {
        "system": "phone",
        "value": "(03) 5555 6473",
        "use": "work",
        "rank": 1
      }, {
        "system": "phone",
        "value": "(03) 3410 5613",
        "use": "mobile",
        "rank": 2
      }, {
        "system": "phone",
        "value": "(03) 5555 8834",
        "use": "old",
        "period": {
          "end": "2014"
        }
      } ],
      "gender": "male",
      "birthDate": "1974-12-25",
      "deceasedBoolean": false,
      "address": [ {
        "use": "home",
        "type": "both",
        "text": "534 Erewhon St PeasantVille, Utah 84414",
        "line": [ "534 Erewhon St" ],
        "city": "PleasantVille",
        "district": "Rainbow",
        "state": "UT",
        "postalCode": "84414",
        "period": {
          "start": "1974-12-25"
        }
      } ],
      "contact": [ {
        "relationship": [ {
          "coding": [ {
            "system": "http://terminology.hl7.org/CodeSystem/v2-0131",
            "code": "N"
          } ]
        } ],
        "name": {
          "family": "du Marché",
          "_family": {
            "extension": [ {
              "url": "http://hl7.org/fhir/StructureDefinition/humanname-own-prefix",
              "valueString": "VV"
            } ]
          },
          "given": [ "Bénédicte" ]
        },
        "telecom": [ {
          "system": "phone",
          "value": "+33 (237) 998327"
        } ],
        "address": {
          "use": "home",
          "type": "both",
          "line": [ "534 Erewhon St" ],
          "city": "PleasantVille",
          "district": "Rainbow",
          "state": "VT",
          "postalCode": "3999",
          "period": {
            "start": "1974-12-25"
          }
        },
        "gender": "female",
        "period": {
          "start": "2012"
        }
      } ],
      "managingOrganization": {
        "reference": "Organization/example"
      }
    },
    "request": {
      "method": "PUT",
      "url": "Patient/InclusionPatient"
    }
  }, {
    "resource": {
      "resourceType": "Condition",
      "id": "ExclusionPatient-condition-hiv-1",
      "meta": {
        "profile": [ "http://fhir.org/guides/nachc/hiv-cds/StructureDefinition/nachc-a1-de1" ]
      },
      "clinicalStatus": {
        "coding": [ {
          "system": "http://terminology.hl7.org/CodeSystem/condition-clinical",
          "version": "0.5.0",
          "code": "active",
          "display": "Active"
        } ]
      },
      "verificationStatus": {
        "coding": [ {
          "system": "http://terminology.hl7.org/ValueSet/condition-ver-status",
          "version": "0.5.0",
          "code": "confirmed",
          "display": "Confirmed"
        } ]
      },
      "category": [ {
        "coding": [ {
          "system": "http://terminology.hl7.org/ValueSet/condition-category",
          "version": "0.5.0",
          "code": "encounter-diagnosis",
          "display": "Encounter Diagnosis"
        } ]
      } ],
      "code": {
        "coding": [ {
          "system": "http://fhir.org/guides/nachc/hiv-cds/CodeSystem/hiv-custom",
          "code": "HIV Diagnosis-62479008",
          "display": "62479008"
        } ]
      },
      "subject": {
        "reference": "Patient/ExclusionPatient"
      },
      "onsetDateTime": "2014-01-10T14:00:00-07:00",
      "abatementDateTime": "2021-07-10T14:00:00-07:00"
    },
    "request": {
      "method": "PUT",
      "url": "Condition/ExclusionPatient-condition-hiv-1"
    }
  }, {
    "resource": {
      "resourceType": "Patient",
      "id": "HighRiskIDUPatient",
      "meta": {
        "profile": [ "http://hl7.org/fhir/us/qicore/StructureDefinition/qicore-patient" ]
      },
      "identifier": [ {
        "use": "usual",
        "type": {
          "coding": [ {
            "system": "http://terminology.hl7.org/CodeSystem/v2-0203",
            "code": "MR"
          } ]
        },
        "system": "urn:oid:1.2.36.146.595.217.0.1",
        "value": "12345",
        "period": {
          "start": "2001-05-06"
        },
        "assigner": {
          "display": "Acme Healthcare"
        }
      } ],
      "active": true,
      "name": [ {
        "use": "official",
        "family": "Madelyn",
        "given": [ "Ashley" ]
      } ],
      "gender": "female",
      "birthDate": "2002-02-02",
      "deceasedBoolean": false
    },
    "request": {
      "method": "PUT",
      "url": "Patient/HighRiskIDUPatient"
    }
  } ]
}